program_id,deliverable_type,deliverable,source_domains,analysis_inputs,output_path,key_columns,required_columns,production_programs,specification_files,qc_evidence,qc_mode
CP-001,analysis_dataset,ADSL-style subject-level analysis dataset,DM;EX;DS,,outputs/adsl_style.csv,STUDYID;USUBJID,STUDYID;USUBJID;TRT01P;TRT01A;TRTSDT;TRTEDT;RANDFL;SAFFL;COMPLFL;DCSFL,src/cdisc_portfolio/derive.py;scripts/run_all.py,spec/analysis_dataset_contracts.json;spec/adam_metadata_config.json,outputs/qc_report.csv;outputs/r_independent_qc.csv;outputs/analysis_dataset_review.csv,cross_language_reconstruction
CP-002,analysis_dataset,ADAE-style adverse-event analysis dataset,AE,outputs/adsl_style.csv,outputs/adae_style.csv,STUDYID;USUBJID;AESEQ,STUDYID;USUBJID;AESEQ;AEDECOD;TRT01A;TRTSDT;TRTEDT;SAFFL;TRTEMFL;RELFL;MODSEVFL,src/cdisc_portfolio/derive.py;scripts/run_all.py,spec/analysis_dataset_contracts.json;spec/adam_metadata_config.json,outputs/qc_report.csv;outputs/r_independent_qc.csv;outputs/analysis_dataset_review.csv,cross_language_reconstruction
CP-003,analysis_dataset,ADQS-style ACTOT efficacy analysis dataset,QS,outputs/adsl_style.csv,outputs/adqs_actot_style.csv,STUDYID;USUBJID;QSSEQ,STUDYID;USUBJID;QSSEQ;TRT01A;PARAMCD;AVISIT;AVAL;BASE;CHG;ABLFL;EFFFL,src/cdisc_portfolio/efficacy.py;scripts/run_all.py,spec/analysis_dataset_contracts.json;spec/adam_metadata_config.json,outputs/qc_report.csv;outputs/r_independent_qc.csv;outputs/analysis_dataset_review.csv,cross_language_reconstruction
CP-004,analysis_dataset,ADTTE-style retention analysis dataset,,outputs/adsl_style.csv,outputs/adtte_retention_style.csv,STUDYID;USUBJID,STUDYID;USUBJID;TRT01P;TRT01A;ANLTRT;PARAM;PARAMCD;STARTDT;ADT;AVAL;CNSR;EVNTDESC;ANL01FL;SRCDOM;SRCVAR,src/cdisc_portfolio/tte.py;scripts/run_tte_retention.py,spec/tte_retention.json,outputs/adtte_retention_qc.csv,derivation_qc
CP-005,tlf,T07 TEAE risk-difference table,,outputs/adsl_style.csv;outputs/adae_style.csv,outputs/table7_teae_risk_difference.csv,comparison,comparison;n_arm;n_placebo;risk_arm;risk_placebo;risk_difference;ci95_lower;ci95_upper;fisher_p,src/cdisc_portfolio/analysis.py;scripts/run_all.py,spec/output_contracts.json;spec/analysis_traceability.csv,outputs/r_independent_qc.csv;outputs/analysis_dataset_review.csv;outputs/traceability_validation.csv,cross_language_reconstruction
CP-006,tlf,T10 Week 24 ANCOVA contrast table,,outputs/adqs_actot_style.csv;outputs/ancova_analysis_subjects.csv,outputs/table10_actot_ancova_contrasts.csv,analysis;comparison,analysis;comparison;n_total;estimate;se;ci95_lower;ci95_upper;p_value;df;baseline_reference,src/cdisc_portfolio/efficacy.py;scripts/run_all.py,spec/output_contracts.json;spec/analysis_traceability.csv,outputs/r_independent_qc.csv;outputs/analysis_dataset_review.csv;outputs/traceability_validation.csv,cross_language_reconstruction
CP-007,tlf,T12 MMRM treatment-contrast table,,outputs/mmrm_analysis_dataset.csv,outputs/mmrm_treatment_contrasts.csv,contrast;AVISIT;covariance,contrast;AVISIT;estimate;SE;df;lower.CL;upper.CL;t.ratio;p.value;covariance,R/mmrm_analysis.R,spec/mmrm_cross_package_validation.json;spec/output_contracts.json;spec/analysis_traceability.csv,outputs/mmrm_qc.csv;outputs/mmrm_cross_package_qc.csv;outputs/traceability_validation.csv,cross_package_reconstruction
